Folder: ncsu-consulting-project/promising

Note: README.md
# ncsu-consulting-project
ncsu-consulting-project

File: REK Drying 102315.csv
Tube,Notch placement (temp column.),substrate,Volume to add in mL,total liquid volume,Total Reducing agent added,Drying Time,Storage,Formulation,substrate size (cm^2),coating volume (uL), coated surface area (cm^2),shaker speed,,,H2,O2,N2,CO,CO2,Scaled CO,N2 Base,Average,H2,O2,N2,CO,CO2,Scaled CO,N2 Base,Average,,,,,,,,,,
purpose: to see why we are getting slower uptake of CO than previously comparing different growth media and 1YCM to see if salt solution messed everything up,,,,,,,,,,,,,,,,,,,,,,,,,,,,,,,,,,,,,,,,
A,No notch,602h,4,4.12,2,20 min @ 25in Hg,11,1,10,120,10,50,,A,12299,0,582,552,236,322.474,,,14110.2,0,533.5,3.1,466.4,1.97563,,,,,,,,,,,,
B,No notch,602h,4,4.12,2,20 min @ 25in Hg,29,1,10,120,10,50,,B,12885,0,352,1046,122,1010.34,,,13791.1,0,379.3,555.3,300.6,497.764,,,,,,,,,,,,
C,No notch,602h,4,4.12,2,60 min @ 25in Hg,11,1,10,120,10,50,,C,-,-,-,-,-,-,,,-,-,-,-,-,,,,,,,,,,,,,
D,No notch,602h,4,4.12,2,60 min @ 25in Hg,29,1,10,120,10,50,,D,12998,0,368,946,154,874.022,,,14329.8,0,453.3,121.8,454.4,91.3567,,,,,,,,,,,,
E,No notch,602h,4,4.12,2,120 min @ 25in Hg,0,1,10,120,10,50,,E,12804,0,363,1041,100,975.041,,,13742.6,0,378,474,323,426.349,,,,,,,,,,,,
F,No notch,602h,4,4.12,2,120 min @ 25in Hg,0,1,10,120,10,50,,F,13046,0,358,905,162,859.497,,,13715,0,401,414,339,351.022,,,,,,,,,,,,
G,LN,602h,4,4.12,4,20 min @ 25in Hg,29,2,10,120,10,50,,G,12334,0,363,1046,100,979.725,,,12988,0,361,668,228,629.141,,,,,,,,,,,,
H,LN,602h,4,4.12,4,60 min @ 25in Hg,0,2,10,120,10,50,,H,11951,0,418,997,110,810.957,,,12366,0,434,633,235,495.899,,,,,,,,,,,,
I,LN,602h,4,4.12,4,120 min @ 25in Hg,11,2,10,120,10,50,,I,12987,0,389,690,211,603.085,,,12534,0,433,614,238,482.125,,,,,,,,,,,,
J,LN,602h,4,4.12,4,120 min @ 25in Hg,29,2,10,120,10,50,,J,13760,0,394,452,303,390.051,,,13066,0,569,0,446,0,,,,,,,,,,,,
K,RN,602h,4,4.12,6,20 min @ 25in Hg,0,3,10,120,10,50,,K,12180,0,331,1064,91,1092.93,,,12244,0,343,951,130,942.682,,,,,,,,,,,,
L,RN,602h,4,4.12,6,20 min @ 25in Hg,0,3,10,120,10,50,,L,12750,0,363,828,161,775.537,,,13011,0,441,432,295,333.061,,,,,,,,,,,,
M,RN,602h,4,4.12,6,60 min @ 25in Hg,29,3,10,120,10,50,,M,11988,0,367,975,119,903.27,,,12090,0,372,698,201,637.957,,,,,,,,,,,,
N,RN,602h,4,4.12,6,120 min @ 25in Hg,11,3,10,120,10,50,,N,12665,0,345,981,106,966.783,,,12810,0,347,753,195,737.81,,,,,,,,,,,,
O,RN,602h,4,4.12,6,120 min @ 25in Hg,29,3,10,120,10,50,,O,11475.4,0,361.5,1004.7,93.7,944.946,,,12619,0,358,781,195,741.732,,,,,,,,,,,,
,,,,,,,,,,,,,,,On 10/27 at 3pm,,,,,,,,On 10/28 at 9:30am,,,,,,,,,,,,,,,,,
SYNGAS,,,,,,,Rh,,2mL,720,,,,,,,,,,,340,,,,,,,,340,,,1.97563,,,,,,,,
,,,,,,,,,4mL,480,,,,,,,,,,,,,,,,,,,,,,497.764,,,,,,,,
,,,,,,,,,6mL,600,,,,,,,,,,,,,,,,,,,,,,,,,,,,,,
Notes,,,,,,,,,Total for 602hh,1800,,,,,,,,,,,,,,,,,,,,,,91.3567,,,,,,,,
Media used for rinse and formulation steps was 1YCM PCG 10/20/15 with varying levels of Na2S and CYS (1mL -> 3mL of each),,,,,,,,,,Formulations ,,,,,,,,,,,,,,,,,,,,,,426.349,,,,,,,,
"9:20 am combined 3'A,B,C,D in an oakridge tube and put in beckman cent. for 15minutes at 5000rpm and 4C",,,,,,,,,,cells,media,total,,,,,,,,,,,,,,,,,,,,351.022,,,,,,,,
Rinsed with 20mL of 1YCM with 2mL reducing agent,,,,,,,,,,#1 ,0.5,,,,,,,,,,,,,,,,,,,,,629.141,,,,,,,,
9:45 cells centrifuged in rotanna for 15min at 6000rcf and 4C,,,,,,,,,2mL,400,400,800,,,,,,,,,,,,,,,,,,,,495.899,,,,,,,,
Cells placed in vacuum chamber at 25inHg at 11:30.,,,,,,,,,,#2,0.5,,,,,,,,,,,,,,,,,,,,,482.125,,,,,,,,
All tubes placed in respective RH bottles,,,,,,,,,4mL,300,300,600,,,,,,,,,,,,,,,,,,,,0,,,,,,,,
RH bottles flushed with Argon at 10psi for 10minutes,,,,,,,,,,#3,0.5,,,,,,,,,,,,,,,,,,,,,942.682,,,,,,,,
Bottles placed in anaerobic chamber at 2:30. ,,,,,,,,,6mL,350,350,700,,,,,,,,,,,,,,,,,,,,333.061,,,,,,,,
,,,,,,,,,,,,,,,,,,,,,,,,,,,,,,,,637.957,,,,,,,,
Rehydration: 10/26,,,,,,,,,,,,,,,,,,,,,,,,,,,,,,,,737.81,,,,,,,,
"**Note: Samples 4 and 6 had some kind of particulate floating around, with 6 having more than 4. ",,,,,,,,,,,,,,,,,,,,,,,,,,,,,,,,741.732,,,,,,,,
**Note: Tube C burst under pressure when it was being flushed with syngas,,,,,,,,,,,,,,,,,,,,,,,,,,,,,,,,,,,,,,,,
Tubes A-F rehydrated with 4mL of 1YCM with 2mL of added reducing agent,,,,,,,,,,,,,,,,,,,,,,,,,,,,,,,,,,,,,,,,
Tubes G-J rehydrated with 4mL of 1YCM with 4mL of added reducing agent,,,,,,,,,,,,,,,,,,,,,,,,,,,,,,,,,,,,,,,,
Tubes K-O rehydrated with 4mL of 1YCM with 6mL of added reducing agent,,,,,,,,,,,,,,,,,,,,,,,,,,,,,,,,,,,,,,,,
All tubes flushed with syngas for 2min at 10psi. ,,,,,,,,,,,,,,,,,,,,,,,,,,,,,,,,,,,,,,,,
All tubes placed in shaker at 2:15 at 50 rpm and 37C,,,,,,,,,,,,,,,,,,,,,,,,,,,,,,,,,,,,,,,,
We also tested the pH of the different 1YCM types:,,,,,,,,,,,,,,,,,,,,,,,,,,,,,,,,,,,,,,,,
2mL was,6.07,,,,,,,,,,,,,,,,,,,,,,,,,,,,,,,,,,,,,,,
4mL was,5.98,,,,,,,,,,,,,,,,,,,,,,,,,,,,,,,,,,,,,,,
6mL was,6.2,,,,,,,,,,,,,,,,,,,,,,,,,,,,,,,,,,,,,,,
,,,,,,,,,,,,,,,,,,,,,,,,,,,,,,,,,,,,,,,,
Sampling: 10/27,,,,,,,,,,,,,,,,,,,,,,,,,,,,,,,,,,,,,,,,
**Note: Tubes A-L (besides C) were all sampled at 2:15 PM ,,,,,,,,,,,,,,,,,,,,,,,,,,,,,,,,,,,,,,,,
"**Note: Tubes M, N, and O were sampled at 3:05 PM",,,,,,,,,,,,,,,,,,,,,,,,,,,,,,,,,,,,,,,,