Folder: ncsu-consulting-project/data/r-load-data

Note: README.md
# ncsu-consulting-project
ncsu-consulting-project

File: MVK Drying 1162015.csv
Tube,Notch placement (temp column.),substrate,Volume to add in mL,total liquid volume,RH Storage,Formulation,Drying Time,substrate size (cm^2),coating volume (uL), coated surface area (cm^2),shaker speed,,,H2,O2,N2,CO,CO2,Scaled CO,N2 Base,H2,O2,N2,CO,CO2,Scaled CO,N2 Base
,,,,,,,,,,,,,,,,,,,,,,,,,,,340
A,No notch,602h,4,4.12,0,1,60 min @ 25inHg,10,120,10,50,,A,13210,0,389,760,203,664.267,,13645.5,0,412.7,492.3,296.4,405.578,
B,No notch,602h,4,4.12,0,1,60 min @ 25inHg,10,120,10,50,,B,13151,0,368,766,201,707.717,,13450.3,0,414.9,545.9,278.1,447.351,
C,No notch,602h,4,4.12,11,1,60 min @ 25inHg,10,120,10,50,,C,12869,0,372,784,185,716.559,,13223,0,403.4,482.1,287.9,406.331,
D,No notch,602h,4,4.12,11,1,60 min @ 25inHg,10,120,10,50,,D,12599,0,345,934,137,920.464,,13213.2,0,375.2,623.7,222.4,565.187,
E,No notch,602h,4,4.12,29,1,60 min @ 25inHg,10,120,10,50,,E,13006,0,367,751,198,695.749,,13505.8,0,408.8,426.4,310.2,354.638,
F,No notch,602h,4,4.12,29,1,60 min @ 25inHg,10,120,10,50,,F,12836,0,343,800,169,793.003,,13708.7,0,387.8,422.3,299.2,370.248,
G,LN,602h,4,4.12,0,2,60 min @ 25inHg,10,120,10,50,,G,12011,0,335,1054,75,1069.73,,12378.3,0,333.7,954.8,114.6,972.826,
H,LN,602h,4,4.12,11,2,60 min @ 25inHg,10,120,10,50,,H,11761,0,377,920,104,829.708,,12176.6,0,409.4,751.9,164.8,624.441,
I,LN,602h,4,4.12,29,2,60 min @ 25inHg,10,120,10,50,,I,11636,0,328,1120,60,1160.98,,11857.7,0,332.6,1023.8,83.2,1046.58,
J,LN,602h,4,4.12,29,2,60 min @ 25inHg,10,120,10,50,,J,11975,0,325,1057,83,1105.78,,11857.7,0,332.6,1023.8,83.2,1046.58,
K,RN,602h,4,4.12,0,3,60 min @ 25inHg,10,120,10,50,,K,11348,0,310,1228,0,1346.84,,11361.1,0,304.9,1207.3,0,1346.28,
L,RN,602h,4,4.12,0,3,60 min @ 25inHg,10,120,10,50,,L,11261,0,317,1220,0,1308.52,,11369.1,0,305.4,1187.1,0,1321.59,
M,RN,602h,4,4.12,11,3,60 min @ 25inHg,10,120,10,50,,M,10978,0,314,1217,0,1317.77,,11016.6,0,303.6,1196.3,0,1339.73,
N,RN,602h,4,4.12,11,3,60 min @ 25inHg,10,120,10,50,,N,11328,0,304,1228,0,1373.42,,11351,0,299,1209.1,0,1374.9,
O,RN,602h,4,4.12,29,3,60 min @ 25inHg,10,120,10,50,,O,11086,0,307,1198,0,1326.78,,11360.9,0,305.6,1206.5,0,1342.31,
P,RN,602h,4,4.12,29,3,60 min @ 25inHg,10,120,10,50,,P,11214,0,311,1229,0,1343.6,,11389.7,0,308.3,1216.9,0,1342.02,

File: REK Drying 10215.csv
Tube,Notch placement (temp column.),substrate,Volume to add in mL,total liquid volume,Media type,headspace,Drying Time,Storage,Formulation,substrate size (cm^2),coating volume (uL), coated surface area (cm^2),shaker speed,,H2,O2,N2,CO,CO2,,Scaled CO,N2 Base,Average,Condition
A,No notch,3MM,4,4.2,1YCM (PCG 10/01/15),5.0 Ar,60 min @ 25in Hg,balch,1,10,200,10,50,,12492.5,0,351.7,1292.8,27.4,,1249.79,,,
B,No notch,3MM,4,4.2,1YCM (PCG 10/01/15),5.0 Ar,60 min @ 25in Hg,balch,1,10,200,10,50,,12246.4,0,332.7,1304.5,0,,1333.12,,,
C,No notch,3MM,4,4.2,1YCM (PCG 10/01/15),5.0 Ar,60 min @ 25in Hg,balch,1,10,200,10,50,,11306.3,0,477.5,1144.4,50.1,,814.861,,1132.59,
D,LN,3MM,4,4.2,1YCM (PCG 9/22/15),5.0 Ar,60 min @ 25in Hg,balch,2,10,200,10,50,,12315.3,0,322.3,1103.8,79.4,,1164.42,,,
E,LN,3MM,4,4.2,1YCM (PCG 9/22/15),5.0 Ar,60 min @ 25in Hg,balch,2,10,200,10,50,,12164.1,0,316.7,1154.9,44.6,,1239.87,,,
F ,LN,3MM,4,4.2,1YCM (PCG 9/22/15),5.0 Ar,60 min @ 25in Hg,balch,2,10,200,10,50,,11979.7,0,324.8,1222.5,35.6,,1279.71,,1228,
G,RN,3MM,4,4.2,1YCM (PCG 10/01/15),5.0 Ar,60 min @ 25in Hg,LiCl bottle,1,10,200,10,50,,11834.5,0,317.8,1253.6,0,,1341.17,,,
H,RN,3MM,4,4.2,1YCM (PCG 10/01/15),5.0 Ar,60 min @ 25in Hg,LiCl bottle,1,10,200,10,50,,11510.6,0,354.1,1267.6,0,,1217.13,,,
I,RN,3MM,4,4.2,1YCM (PCG 10/01/15),5.0 Ar,60 min @ 25in Hg,LiCl bottle,1,10,200,10,50,,11761.9,0,320.8,1242.4,0,,1316.76,,1291.68,
J,MD,3MM,4,4.2,1YCM (PCG 1/4Na 10/01/15),5.0 Ar,60 min @ 25in Hg,balch,3,10,200,10,50,,12356.8,0,332.5,1068,82.1,,1092.09,,,
K,MD,3MM,4,4.2,1YCM (PCG 1/4Na 10/01/15),5.0 Ar,60 min @ 25in Hg,balch,3,10,200,10,50,,11947.9,0,311.8,1117.8,50.4,,1218.9,,,
L,MD,3MM,4,4.2,1YCM (PCG 1/4Na 10/01/15),5.0 Ar,60 min @ 25in Hg,balch,3,10,200,10,50,,11739,0,327.7,1193.4,35.6,,1238.19,,1183.06,

File: REK Drying 10915.csv
Tube,Notch placement (temp column.),substrate,Volume to add in mL,total liquid volume,Media type,headspace,Drying Time,Storage,Formulation,substrate size (cm^2),coating volume (uL), coated surface area (cm^2),shaker speed,,H2,O2,N2,CO,CO2,,Scaled CO
A,No notch,3MM,4,4.2,1YCM (PCG 10/01/15),N/A,N/A,balch into shaker,1,10,200,10,50,AFTER 4 HOURS,11825,0,788,434.5,262.2,,187.475
B,No notch,3MM,4,4.2,1YCM (PCG 10/01/15),N/A,N/A,balch into shaker,1,10,200,10,50,AFTER 4 HOURS,14404.9,0,537.7,375.6,341.8,,237.5
C,No notch,3MM,4,4.2,1YCM (PCG 10/01/15),N/A,N/A,balch into shaker,1,10,200,10,50,AFTER 4 HOURS,12987.2,0,633.6,450.1,291.7,,241.531
D,LN,3MM,4,4.2,1YCM (PCG 10/01/15),N/A,60 min @ 25in Hg,balch into shaker,1,10,200,10,50,AFTER 4 HOURS,12667.5,0,333.1,1288.5,25.8,,1315.19
E,LN,3MM,4,4.2,1YCM (PCG 10/01/15),N/A,60 min @ 25in Hg,balch into shaker,1,10,200,10,50,AFTER 4 HOURS,12583.7,0,332.3,1265.3,44.6,,1294.62
F ,LN,3MM,4,4.2,1YCM (PCG 10/01/15),N/A,60 min @ 25in Hg,balch into shaker,1,10,200,10,50,AFTER 4 HOURS,12403.8,0,331,1286.9,35.2,,1321.89
G,RN,3MM,4,4.2,1YCM (PCG 10/01/15),LiCl in chamber,60 min @ 25in Hg,LiCl bottle,1,10,200,10,50,After 44 Hours,12749.5,0,348.3,1168.9,77.3,,1141.05
H,RN,3MM,4,4.2,1YCM (PCG 10/01/15),LiCl in chamber,60 min @ 25in Hg,LiCl bottle,1,10,200,10,50,After 44 Hours,12425.8,0,330.6,1110.2,58.5,,1141.77
I,RN,3MM,4,4.2,1YCM (PCG 10/01/15),LiCl in chamber,60 min @ 25in Hg,LiCl bottle,1,10,200,10,50,After 44 Hours,12947.1,0,343.2,947.8,137.7,,938.963
J,MD,3MM,4,4.2,1YCM (PCG 10/01/15),5.0 Ar,60 min @ 25in Hg,balch under bench,1,10,200,10,50,,** Cap came off when moving in anaerobic hood; wasn't rehydrated or tested. ,,,,,,#DIV/0!
K,MD,3MM,4,4.2,1YCM (PCG 10/01/15),5.0 Ar,60 min @ 25in Hg,balch under bench,1,10,200,10,50,After 44 Hours,13190.8,0,353.7,840.2,192.1,,807.656
L,MD,3MM,4,4.2,1YCM (PCG 10/01/15),5.0 Ar,60 min @ 25in Hg,balch under bench,1,10,200,10,50,After 44 Hours,12829.3,0,351.1,936.6,149.1,,906.989
M,MD & LN,3MM,4,4.2,1YCM (PCG 10/01/15),5.0 Ar,60 min @ 25in Hg,balch in Anaerobic chamber,1,10,200,10,50,After 44 Hours,11809.4,0,376.1,1100.4,70.9,,994.778
N,MD & LN,3MM,4,4.2,1YCM (PCG 10/01/15),5.0 Ar,60 min @ 25in Hg,balch in Anaerobic chamber,1,10,200,10,50,After 44 Hours,12358.3,0,333.9,1135.1,83.5,,1155.84
O,MD & LN,3MM,4,4.2,1YCM (PCG 10/01/15),5.0 Ar,60 min @ 25in Hg,balch in Anaerobic chamber,1,10,200,10,50,After 44 Hours,11782.8,0,350.6,1082,62.8,,1049.29
P,MD & RN,602hh Filter Paper,4,4.12,1YCM (PCG 10/01/15),5.0 Ar,60 min @ 25in Hg,balch in Anaerobic chamber,2,10,120,10,50,After 44 Hours,13003.6,0,393.9,629.4,257.3,,543.275
Q,MD & RN,602hh Filter Paper,4,4.12,1YCM (PCG 10/01/15),5.0 Ar,60 min @ 25in Hg,balch in Anaerobic chamber,2,10,120,10,50,After 44 Hours,12439.3,0,589.7,351.1,282.7,,202.432
R,MD & RN,602hh Filter Paper,4,4.12,1YCM (PCG 10/01/15),5.0 Ar,60 min @ 25in Hg,balch in Anaerobic chamber,2,10,120,10,50,After 44 Hours,12214,0,583.8,454.7,275.7,,264.813

File: REK Drying 12415.csv
Tube,Notch placement (temp column.),substrate,Volume to add in mL,total liquid volume,RH Storage,Formulation,Substrate,Drying Time,Rehydration Media,substrate size (cm^2),coating volume (uL), coated surface area (cm^2),shaker speed,,H2,O2,N2,CO,CO2,Scaled CO,N2 Base,,,,,,,,
,,,,,,,,,,,,,,Sampled on 12/9,,,,,,,340,,,,,,,,
A,No notch,3MM,4,4.12,11,1,3MM,0,50mL 1YCM 2mL CYS PCG 10/29/15,10,120,10,50,at 9am,,,,,,,,,,,,,,,
B,No notch,3MM,4,4.12,11,1,3MM,0,50mL 2YCM with 2mL CYS in 0.1NaOH PCG 10/29/15,10,120,10,50,,12558.2,0,342.8,1272.2,48.1,1261.81,,,,,,,,,
C,No notch,602hh,4,4.12,11,1,602hh,0,50mL 1YCM 2mL CYS PCG 10/29/16,10,120,10,50,,12298.7,0,347.9,1265.1,47.9,1236.37,,,,,,,,,
D,No notch,602hh,4,4.12,11,1,602hh,0,50mL 2YCM with 2mL CYS in 0.1NaOH PCG 10/29/16,10,120,10,50,,12619.8,0,348.3,1191.6,69.4,1163.2,,,,,,,,,
E,LN,3MM,4,4.12,11,1,3MM,15,50mL 1YCM 2mL CYS PCG 10/29/16,10,120,10,50,,11278.6,0,789.6,0,351.9,0,,,,,,,,,
F,LN,3MM,4,4.12,11,1,3MM,15,50mL 2YCM with 2mL CYS in 0.1NaOH PCG 10/29/16,10,120,10,50,,14301.9,0,531.8,0,497.7,0,,,,,,,,,
G,LN,602hh,4,4.12,11,1,602hh,15,50mL 1YCM 2mL CYS PCG 10/29/17,10,120,10,50,,13366.3,0,593.3,11.1,512.3,6.36103,,,,,,,,,
H,LN,602hh,4,4.12,11,1,602hh,15,50mL 2YCM with 2mL CYS in 0.1NaOH PCG 10/29/17,10,120,10,50,,12154.2,0,670.3,223.9,379.7,113.57,,,,,,,,,
I,RN,3MM,4,4.12,11,1,3MM,30,50mL 1YCM 2mL CYS PCG 10/29/17,10,120,10,50,,12750.5,0,369.1,381.5,279.6,351.422,,,,,,,,,
J,RN,3MM,4,4.12,11,1,3MM,30,50mL 2YCM with 2mL CYS in 0.1NaOH PCG 10/29/17,10,120,10,50,,12770.4,0,461.2,116.2,328.3,85.6635,,,,,,,,,
K,Rn,602hh,4,4.12,11,1,602hh,30,50mL 1YCM 2mL CYS PCG 10/29/18,10,120,10,50,,12795.4,0,358.5,715.3,224.2,678.388,,,,,,,,,
L,Rn,602hh,4,4.12,11,1,602hh,30,50mL 2YCM with 2mL CYS in 0.1NaOH PCG 10/29/18,10,120,10,50,,12584.2,0,610.9,0,508.7,0,,,,,,,,,
M,MN,3MM,4,4.12,11,1,3MM,60,50mL 1YCM 2mL CYS PCG 10/29/18,10,120,10,50,,13854.8,0,414.1,291.1,427,239.01,,,,,,,,,
N,MN,3MM,4,4.12,11,1,3MM,60,50mL 2YCM with 2mL CYS in 0.1NaOH PCG 10/29/18,10,120,10,50,,12324.6,0,583.4,6.3,361.7,3.67158,,,,,,,,,
O,MN,602hh,4,4.12,11,1,602hh,60,50mL 1YCM 2mL CYS PCG 10/29/19,10,120,10,50,,12315.3,0,539.6,427.6,351.5,269.429,,,,,,,,,
P,MN,602hh,4,4.12,11,1,602hh,60,50mL 2YCM with 2mL CYS in 0.1NaOH PCG 10/29/19,10,120,10,50,,13637.5,0,525.4,0,524.1,0,,,,,,,,,
Q,LN&MN,3MM,4,4.12,11,1,3MM,90,50mL 1YCM 2mL CYS PCG 10/29/19,10,120,10,50,,14021.8,0,402,329,321.2,278.259,,,,,,,,,
R,LN&MN,3MM,4,4.12,11,1,3MM,90,50mL 2YCM with 2mL CYS in 0.1NaOH PCG 10/29/19,10,120,10,50,,11432.7,0,647.7,17.3,423.5,9.08136,,,,,,,,,
S,LN&MN,602hh,4,4.12,11,1,602hh,90,50mL 1YCM 2mL CYS PCG 10/29/20,10,120,10,50,,12428.8,0,594,264.3,400.9,151.283,,,,,,,,,
T,LN&MN,602hh,4,4.12,11,1,602hh,90,50mL 2YCM with 2mL CYS in 0.1NaOH PCG 10/29/20,10,120,10,50,,12844,0,501.2,346.2,398.8,234.852,,,,,,,,,

File: REK drying 91815.csv
Tube,Notch placement (temp column.),substrate,Volume to add in mL,total liquid volume,Media type,storage,Drying Time,Bottle,Formulation,substrate size (cm^2),coating volume (uL), coated surface area (cm^2),shaker speed,,H2,O2,N2,CO,CO2,,Scaled CO,N2 Base,Average,Condition,,Average,Relative Humidity
SYNGAS,,,,,,,,,,,,,,,,,,,,,,340,,,,,
A,,3MM,4,4.2,1YCM,5.0 Ar,N/A,A (LiCl),1,10,200,10,50,,12448.4,0,336.3,1271.4,30.1,,1285.39,,1309.16," no vacuum, LiCl",,1309.16,1
B,,3MM,4,4.2,1YCM,5.0 Ar,N/A,A (LiCl),1,10,200,10,50,,12411.7,0,331.3,1310.7,37.3,,1345.12,,,,,1117.91,2
C,,3MM,4,4.2,1YCM,5.0 Ar,N/A,A (LiCl),1,10,200,10,50,,12242.2,0,341.4,1302.3,38.1,,1296.96,,,,,,
D,LN,3MM,4,4.2,1YCM,5.0 Ar,60 min @ 25in Hg,B (LiCl),1,10,200,10,50,,12610,0,344.1,1128.3,74.3,,1114.86,,920.999,"with vacuum, LiCl",,920.999,3
E,LN,3MM,4,4.2,1YCM,5.0 Ar,60 min @ 25in Hg,B (LiCl),1,10,200,10,50,,12842,0,342.6,973.6,152.5,,966.211,,,,,,
F,LN,3MM,4,4.2,1YCM,5.0 Ar,60 min @ 25in Hg,B (LiCl),1,10,200,10,50,,12843.2,0,334.6,671.1,216.8,,681.931,,,,,,
G,NN,3MM,4,4.12,1YCM,5.0 Ar,60 min @ 25in Hg,B (LiCl),2,10,120,10,50,,12717.2,0,341.6,1001.5,148.4,,996.809,,903.671,"with vacuum, LiCl high cell conc",,903.671,4
H,NN,3MM,4,4.12,1YCM,5.0 Ar,60 min @ 25in Hg,B (LiCl),2,10,120,10,50,,12361,0,429.3,880.1,130.9,,697.028,,,,,,
I,NN,3MM,4,4.12,1YCM,5.0 Ar,60 min @ 25in Hg,B (LiCl),2,10,120,10,50,,12412,0,349,1044.1,126.4,,1017.17,,,,,1204.36,5
J,RN,3MM,4,4.2,1YCM,5.0 Ar,60 min @ 25in Hg,C (Drierite),1,10,200,10,50,,12389.3,0,327,1036.9,84.4,,1078.12,,1117.91,"with vacuum, drierite",,,
K,RN,3MM,4,4.2,1YCM,5.0 Ar,60 min @ 25in Hg,C (Drierite),1,10,200,10,50,,12141,0,314.5,998,81,,1078.92,,,,,,
L,RN,3MM,4,4.2,1YCM,5.0 Ar,60 min @ 25in Hg,C (Drierite),1,10,200,10,50,,11894.2,0,333.5,1173.8,45,,1196.68,,,,,,
M,MN,3MM,4,4.2,1YCM,5.0 Ar,60 min @ 25in Hg,D (CaCl),1,10,200,10,50,,11354.7,0,330.9,1124.4,30.8,,1155.32,,1204.36,"with vacuum, CaCl",,,
N,MN,3MM,4,4.2,1YCM,5.0 Ar,60 min @ 25in Hg,D (CaCl),1,10,200,10,50,,11603.2,0,301.4,1123.6,47.1,,1267.5,,,,,,
O,MN,3MM,4,4.2,1YCM,5.0 Ar,60 min @ 25in Hg,D (CaCl),1,10,200,10,50,,11553.5,0,334.5,1171,50.4,,1190.25,,,,,,

File: REK Drying 101615.csv
Tube,Notch placement (temp column.),substrate,Volume to add in mL,total liquid volume,Media type,headspace,Drying Time,Storage,Formulation,substrate size (cm^2),coating volume (uL), coated surface area (cm^2),shaker speed,,,H2,O2,N2,CO,CO2,Scaled CO,N2 Base,Average,H2,O2,N2,CO,CO2,Scaled CO,N2 Base,Average,,,,,,,,,,
SYNGAS,,,,,,,,Rh,,,,,,,,,,,,,,340,,,,,,,,340,,,,,,,,,,,
A,No notch,3MM,4,4.2,1YCM (PCG 10/01/15) xtra cys and Na2S,,60 min @ 25in Hg,11,1,10,200,10,50,,A,12125,,318,1046,77,1118.36,,,12960.5,0,329.6,877.3,136.4,904.982,,,,,,,,,,,,
B,No notch,3MM,4,4.2,1YCM (PCG 10/01/15) xtra cys and Na2S,,60 min @ 25in Hg,11,1,10,200,10,50,,B,12122,,307,1184,36,1311.27,,,12476.5,0,312.9,1079.2,59.8,1172.67,,,,,,,,,,,,
C,No notch,3MM,4,4.2,1YCM (PCG 10/01/15) xtra cys and Na2S,,60 min @ 25in Hg,flush,1,10,200,10,50,,C,11975,,321,1183,24,1253.02,,,11986.5,0,311.9,1065.6,63.7,1161.6,,,,,,,,,,,,
D,LN,3MM,4,4.2,1YCM (PCG 10/01/15) xtra cys,,60 min @ 25in Hg,0,2,10,200,10,50,,D,12145,,319,1132,52,1206.52,,,12763.4,0,328.7,923.9,125,955.662,,,,,,,,,,,,
E,LN,3MM,4,4.2,1YCM (PCG 10/01/15) xtra cys,,60 min @ 25in Hg,0,2,10,200,10,50,,E,12380,,328,1025,97,1062.5,,,12470.1,0,348.3,923.4,124,901.395,,,,,,,,,,,,
F ,LN,3MM,4,4.2,1YCM (PCG 10/01/15) xtra cys,,60 min @ 25in Hg,flush,2,10,200,10,50,,F,12488,,318,1177,37,1258.43,,,12363.7,0,319,941.6,91.3,1003.59,,,,,,,,,,,,
G,RN,602hh ,4,4.12,1YCM (PCG 10/01/15) xtra cys and Na2S,,60 min @ 25in Hg,0,3,10,120,10,50,,G,12481,,340,1026,109,1026,,,13154.9,0,360.3,692.6,221,653.578,,,,,,,,,,,,
H,RN,602hh ,4,4.12,1YCM (PCG 10/01/15) xtra cys and Na2S,,60 min @ 25in Hg,0,3,10,120,10,50,,H,12367,,422,832,137,670.332,,,12928.3,0,558.6,329,308.5,200.251,,,,,,,,,,,,
I,RN,602hh ,4,4.12,1YCM (PCG 10/01/15) xtra cys and Na2S,,60 min @ 25in Hg,flush,3,10,120,10,50,,I,12650,,358,844,166,801.564,,,13367.7,0,470.3,267.2,364.1,193.17,,,,,,,,,,,,
J,MD,602hh ,4,4.12,1YCM (PCG 10/01/15) xtra cys,,60 min @ 25in Hg,11,4,10,120,10,50,,J,12508,,339,969,124,971.858,,,13560.4,0,378,544.9,241,490.122,,,,,,,,,,,,
K,MD,602hh ,4,4.12,1YCM (PCG 10/01/15) xtra cys,,60 min @ 25in Hg,11,4,10,120,10,50,,K,11947,,323,1121,70,1180,,,12498.8,0,338.7,886.3,148.6,889.702,,,,,,,,,,,,
L,MD,602hh ,4,4.12,1YCM (PCG 10/01/15) xtra cys,,60 min @ 25in Hg,flush,4,10,120,10,50,,L,12074,,337,1050,92,1059.35,,,12923.8,0,371.5,630.9,237.2,577.405,,,,,,,,,,,,

File: REK Drying 102315.csv
Tube,Notch placement (temp column.),substrate,Volume to add in mL,total liquid volume,Total Reducing agent added,Drying Time,Storage,Formulation,substrate size (cm^2),coating volume (uL), coated surface area (cm^2),shaker speed,,,H2,O2,N2,CO,CO2,Scaled CO,N2 Base,Average,H2,O2,N2,CO,CO2,Scaled CO,N2 Base,Average,,,,,,,,,,
purpose: to see why we are getting slower uptake of CO than previously comparing different growth media and 1YCM to see if salt solution messed everything up,,,,,,,,,,,,,,,,,,,,,,,,,,,,,,,,,,,,,,,,
A,No notch,602h,4,4.12,2,20 min @ 25in Hg,11,1,10,120,10,50,,A,12299,0,582,552,236,322.474,,,14110.2,0,533.5,3.1,466.4,1.97563,,,,,,,,,,,,
B,No notch,602h,4,4.12,2,20 min @ 25in Hg,29,1,10,120,10,50,,B,12885,0,352,1046,122,1010.34,,,13791.1,0,379.3,555.3,300.6,497.764,,,,,,,,,,,,
C,No notch,602h,4,4.12,2,60 min @ 25in Hg,11,1,10,120,10,50,,C,-,-,-,-,-,-,,,-,-,-,-,-,,,,,,,,,,,,,
D,No notch,602h,4,4.12,2,60 min @ 25in Hg,29,1,10,120,10,50,,D,12998,0,368,946,154,874.022,,,14329.8,0,453.3,121.8,454.4,91.3567,,,,,,,,,,,,
E,No notch,602h,4,4.12,2,120 min @ 25in Hg,0,1,10,120,10,50,,E,12804,0,363,1041,100,975.041,,,13742.6,0,378,474,323,426.349,,,,,,,,,,,,
F,No notch,602h,4,4.12,2,120 min @ 25in Hg,0,1,10,120,10,50,,F,13046,0,358,905,162,859.497,,,13715,0,401,414,339,351.022,,,,,,,,,,,,
G,LN,602h,4,4.12,4,20 min @ 25in Hg,29,2,10,120,10,50,,G,12334,0,363,1046,100,979.725,,,12988,0,361,668,228,629.141,,,,,,,,,,,,
H,LN,602h,4,4.12,4,60 min @ 25in Hg,0,2,10,120,10,50,,H,11951,0,418,997,110,810.957,,,12366,0,434,633,235,495.899,,,,,,,,,,,,
I,LN,602h,4,4.12,4,120 min @ 25in Hg,11,2,10,120,10,50,,I,12987,0,389,690,211,603.085,,,12534,0,433,614,238,482.125,,,,,,,,,,,,
J,LN,602h,4,4.12,4,120 min @ 25in Hg,29,2,10,120,10,50,,J,13760,0,394,452,303,390.051,,,13066,0,569,0,446,0,,,,,,,,,,,,
K,RN,602h,4,4.12,6,20 min @ 25in Hg,0,3,10,120,10,50,,K,12180,0,331,1064,91,1092.93,,,12244,0,343,951,130,942.682,,,,,,,,,,,,
L,RN,602h,4,4.12,6,20 min @ 25in Hg,0,3,10,120,10,50,,L,12750,0,363,828,161,775.537,,,13011,0,441,432,295,333.061,,,,,,,,,,,,
M,RN,602h,4,4.12,6,60 min @ 25in Hg,29,3,10,120,10,50,,M,11988,0,367,975,119,903.27,,,12090,0,372,698,201,637.957,,,,,,,,,,,,
N,RN,602h,4,4.12,6,120 min @ 25in Hg,11,3,10,120,10,50,,N,12665,0,345,981,106,966.783,,,12810,0,347,753,195,737.81,,,,,,,,,,,,
O,RN,602h,4,4.12,6,120 min @ 25in Hg,29,3,10,120,10,50,,O,11475.4,0,361.5,1004.7,93.7,944.946,,,12619,0,358,781,195,741.732,,,,,,,,,,,,

File: REK Drying 103015.csv
Tube,Notch placement (temp column.),substrate,Volume to add in mL,total liquid volume,Reducing Agent Added,RH Storage,Formulation,Drying Time,substrate size (cm^2),coating volume (uL), coated surface area (cm^2),shaker speed,,,H2,O2,N2,CO,CO2,Scaled CO,N2 Base,Sampling 2,H2,O2,N2,CO,CO2,Scaled CO,N2 Base,,,,,,,,,,,
,,,,,,,,,,,,,,,,,,,,,,11/4/2015,,,,,,,340,,,,,,,,,,,
A,No notch,602h,4,4.12,0.5ml CYS (rinse),0,1,60 min @ 25inHg,10,120,10,50,,A,13273,0,377,1088,112,981.22,,,14299.9,0,407.2,620.1,283.3,517.765,,,,,,,,,,,,
B,No notch,602h,4,4.12,0.5ml CYS (rinse),0,1,60 min @ 25inHg,10,120,10,50,,B,13971,0,379,830,192,744.591,,,14928.8,0,481,311.9,372.8,220.47,,,,,,,,,,,,
C,No notch,602h,4,4.12,0.5ml CYS (rinse),11,1,60 min @ 25inHg,10,120,10,50,,C,12951,0,393,1018,117,880.712,,,13621.3,0,396.5,715.3,229.2,613.372,,,,,,,,,,,,
D,No notch,602h,4,4.12,0.5ml CYS (rinse),29,1,60 min @ 25inHg,10,120,10,50,,D,13457,0,369,866,175,797.94,,,14639.9,0,476,151.2,430.4,108,,,,,,,,,,,,
E,No notch,602h,4,4.12,0.5ml CYS (rinse),29,1,60 min @ 25inHg,10,120,10,50,,E,13553,0,374,834,180,758.182,,,13770.5,0,530.8,377.4,323.9,241.741,,,,,,,,,,,,
F,LN,602h,4,4.12,1mL CYS,0,2,60 min @ 25inHg,10,120,10,50,,F,13254,0,358,857,161,813.911,,,13676.3,0,403.5,587.1,253.6,494.706,,,,,,,,,,,,
G,LN,602h,4,4.12,1mL CYS,11,2,60 min @ 25inHg,10,120,10,50,,G,13062,0,363,869,162,813.939,,,13685.3,0,415.8,547.2,279.4,447.446,,,,,,,,,,,,
H,LN,602h,4,4.12,1mL CYS,29,2,60 min @ 25inHg,10,120,10,50,,H,12771,0,462,772,176,568.139,,,13288,0,511.4,472.4,247.8,314.071,,,,,,,,,,,,
I,RN,602h,4,4.12,1mL CYS Na2S,0,3,60 min @ 25inHg,10,120,10,50,,I,12469,0,359,1019,104,965.07,,,12823.7,0,380.5,872.9,166.3,779.989,,,,,,,,,,,,
J,RN,602h,4,4.12,1mL CYS Na2S,11,3,60 min @ 25inHg,10,120,10,50,,J,12927,0,359,863,161,817.326,,,12022.7,0,582.1,545.6,238.7,318.681,,,,,,,,,,,,
K,RN,602h,4,4.12,1mL CYS Na2S,29,3,60 min @ 25inHg,10,120,10,50,,K,12285,0,329,1040,68,1074.77,,,12512.2,0,348,899.4,131.7,878.724,,,,,,,,,,,,
L,MN,602h,4,4.12,2mL CYS Na2S,0,4,60 min @ 25inHg,10,120,10,50,,L,12011,0,337,1167,46,1177.39,,,1202.1,0,342.3,1143.5,58,1135.82,,,,,,,,,,,,
M,MN,602h,4,4.12,2mL CYS Na2S,11,4,60 min @ 25inHg,10,120,10,50,,M,11816,0,330,1139,30,1173.52,,,11471.1,0,386.8,1081.4,42.4,950.558,,,,,,,,,,,,
N,MN,602h,4,4.12,2mL CYS Na2S,29,4,60 min @ 25inHg,10,120,10,50,,N,12089,0,327,1214,38,1262.26,,,121708,0,329.5,1189.3,47.9,1227.2,,,,,,,,,,,,
O,MN,602h,4,4.12,2mL CYS Na2S,29,4,60 min @ 25inHg,10,120,10,50,,O,11836,0,353,1135,49,1093.2,,,12240.8,0,337.3,1088.3,71.2,1097.01,,,,,,,,,,,,

File: REK Drying 112015.csv
Tube,Notch placement (temp column.),substrate,Volume to add in mL,total liquid volume,RH Storage,Formulation,Substrate,Drying Time,substrate size (cm^2),coating volume (uL), coated surface area (cm^2),shaker speed,,H2,O2,N2,CO,CO2,Scaled CO,N2 Base,H2,O2,N2,CO,CO2,Scaled CO,N2 Base,
,,,,,,,,,,,,,,,,,,,,340,,,,,,,340,
A,No notch,3MM,4,4.2,11,2,3MM,15,10,200,10,50,A,12429,,355,1317,0,1261.35,,12561,0,348.1,1302.9,41.1,1272.58,,
B,No notch,3MM,4,4.2,11,2,3MM,15,10,200,10,50,B,12269,,313,1190,31,1292.65,,12686.8,0,324.6,1149.3,53.4,1203.83,,
C,No notch,602hh,4,4.12,11,1,602hh,15,10,120,10,50,C,13177,,392,729,223,632.296,,12638.7,0,662.9,176.2,410.5,90.3726,,
D,No notch,602hh,4,4.12,11,1,602hh,15,10,120,10,50,D,12992,,357,1013,113,964.762,,13737.1,0,394.6,715,280.5,616.067,,
E,LN,3MM,4,4.12,11,2,3MM,30,10,200,10,50,E,13202,,347,764,176,748.588,,13417.7,0,461,428.1,287.7,315.735,,
F,LN,3MM,4,4.12,11,2,3MM,30,10,200,10,50,F,13226,,353,730,191,703.116,,14258.2,0,385.1,380.2,315.6,335.674,,
G,LN,602hh,4,4.12,11,1,602hh,30,10,120,10,50,G,12920,,371,815,189,746.9,,13513.9,0,416.8,694.1,277.4,566.204,,
H,LN,602hh,4,4.12,11,1,602hh,30,10,120,10,50,H,11794,,463,979,108,718.92,,12546.6,0,533.1,702.9,183.7,448.295,,
I,RN,3MM,4,4.12,11,2,3MM,60,10,200,10,50,I,13298,,387,610,242,535.917,,13195.4,0,614.5,210.3,386,116.358,,
J,RN,3MM,4,4.12,11,2,3MM,60,10,200,10,50,J,13138,,345,725,186,714.493,,13793.1,0,382,579.3,305.3,515.607,,
K,Rn,602hh,4,4.12,11,1,602hh,60,10,120,10,50,K,12740,,353,847,167,815.807,,13848.7,0,428.6,411.8,384.7,326.673,,
L,Rn,602hh,4,4.12,11,1,602hh,60,10,120,10,50,L,12364,,347,1018,111,997.464,,13412.3,0,386.8,707.7,306.6,622.073,,
M,MN,3MM,4,4.2,11,2,3MM,90,10,200,10,50,M,12712,,362,629,200,590.773,,13308.6,0,484.7,259.2,296.5,181.82,,
N,MN,3MM,4,4.2,11,2,3MM,90,10,200,10,50,N,13152,,357,654,219,622.857,,14381.2,0,438.1,218.3,458.3,169.418,,
O,MN,602hh,4,4.12,11,1,602hh,90,10,120,10,50,O,12424,,342,978,107,972.281,,13369.1,0,380.9,697.5,286.6,622.604,,
P,MN,602hh,4,4.12,11,1,602hh,90,10,120,10,50,P,12121,,334,934,121,950.778,,13191.7,0,441.1,657.4,322.1,506.724,,