Folder: ncsu-consulting-project/data/split

Note: README.md
# ncsu-consulting-project
ncsu-consulting-project

File: REK Drying 103015.csv
Tube,Notch placement (temp column.),substrate,Volume to add in mL,total liquid volume,Reducing Agent Added,RH Storage,Formulation,Drying Time,substrate size (cm^2),coating volume (uL), coated surface area (cm^2),shaker speed,,,H2,O2,N2,CO,CO2,Scaled CO,N2 Base,Sampling 2,H2,O2,N2,CO,CO2,Scaled CO,N2 Base,,,,,,,,,,,
,,,,,,,,,,,,,,,,,,,,,,11/4/2015,,,,,,,340,,,,,,,,,,,
A,No notch,602h,4,4.12,0.5ml CYS (rinse),0,1,60 min @ 25inHg,10,120,10,50,,A,13273,0,377,1088,112,981.22,,,14299.9,0,407.2,620.1,283.3,517.765,,,,,,,,,,,,
B,No notch,602h,4,4.12,0.5ml CYS (rinse),0,1,60 min @ 25inHg,10,120,10,50,,B,13971,0,379,830,192,744.591,,,14928.8,0,481,311.9,372.8,220.47,,,,,,,,,,,,
C,No notch,602h,4,4.12,0.5ml CYS (rinse),11,1,60 min @ 25inHg,10,120,10,50,,C,12951,0,393,1018,117,880.712,,,13621.3,0,396.5,715.3,229.2,613.372,,,,,,,,,,,,
D,No notch,602h,4,4.12,0.5ml CYS (rinse),29,1,60 min @ 25inHg,10,120,10,50,,D,13457,0,369,866,175,797.94,,,14639.9,0,476,151.2,430.4,108,,,,,,,,,,,,
E,No notch,602h,4,4.12,0.5ml CYS (rinse),29,1,60 min @ 25inHg,10,120,10,50,,E,13553,0,374,834,180,758.182,,,13770.5,0,530.8,377.4,323.9,241.741,,,,,,,,,,,,
F,LN,602h,4,4.12,1mL CYS,0,2,60 min @ 25inHg,10,120,10,50,,F,13254,0,358,857,161,813.911,,,13676.3,0,403.5,587.1,253.6,494.706,,,,,,,,,,,,
G,LN,602h,4,4.12,1mL CYS,11,2,60 min @ 25inHg,10,120,10,50,,G,13062,0,363,869,162,813.939,,,13685.3,0,415.8,547.2,279.4,447.446,,,,,,,,,,,,
H,LN,602h,4,4.12,1mL CYS,29,2,60 min @ 25inHg,10,120,10,50,,H,12771,0,462,772,176,568.139,,,13288,0,511.4,472.4,247.8,314.071,,,,,,,,,,,,
I,RN,602h,4,4.12,1mL CYS Na2S,0,3,60 min @ 25inHg,10,120,10,50,,I,12469,0,359,1019,104,965.07,,,12823.7,0,380.5,872.9,166.3,779.989,,,,,,,,,,,,
J,RN,602h,4,4.12,1mL CYS Na2S,11,3,60 min @ 25inHg,10,120,10,50,,J,12927,0,359,863,161,817.326,,,12022.7,0,582.1,545.6,238.7,318.681,,,,,,,,,,,,
K,RN,602h,4,4.12,1mL CYS Na2S,29,3,60 min @ 25inHg,10,120,10,50,,K,12285,0,329,1040,68,1074.77,,,12512.2,0,348,899.4,131.7,878.724,,,,,,,,,,,,
L,MN,602h,4,4.12,2mL CYS Na2S,0,4,60 min @ 25inHg,10,120,10,50,,L,12011,0,337,1167,46,1177.39,,,1202.1,0,342.3,1143.5,58,1135.82,,,,,,,,,,,,
M,MN,602h,4,4.12,2mL CYS Na2S,11,4,60 min @ 25inHg,10,120,10,50,,M,11816,0,330,1139,30,1173.52,,,11471.1,0,386.8,1081.4,42.4,950.558,,,,,,,,,,,,
N,MN,602h,4,4.12,2mL CYS Na2S,29,4,60 min @ 25inHg,10,120,10,50,,N,12089,0,327,1214,38,1262.26,,,121708,0,329.5,1189.3,47.9,1227.2,,,,,,,,,,,,
O,MN,602h,4,4.12,2mL CYS Na2S,29,4,60 min @ 25inHg,10,120,10,50,,O,11836,0,353,1135,49,1093.2,,,12240.8,0,337.3,1088.3,71.2,1097.01,,,,,,,,,,,,
,,,,,,,,,,,,,,On 11/03/2015 at 2:25 PM,,,,,,,340,,,,,,,,,,,,,,,,,,,
,,,,,,,,,0mL,600,,,,,,,,,,,,,,,,,,,,,,,,,,,,,,
SYNGAS,,,,,,,,,2mL,360,,,,,,,,,,,,,,,,,,,,,,,,,,,,,,
,,,,,,,,,4mL,360,,,,,,,,,,,,,,,,,,,,,,,,,,,,,,
Drying Notes,,,,,,,,,6mL,480,,,,,,,,,,,,,,,,,,,,,,,,,,,,,,
**The RINSE 1YCM turned slightly pink in the anaerobic chamber when most of it had been used up. It was pink when used for formulation 1,,,,,,,,,Total for 602hh,1800,,,,,,,,,,,,,,,,,,,,,,,,,,,,,,
"Bottles 3'A,B,C,D placed in beckman centrifuge at 9:30 for 15min at 5000rpms and 4C",,,,,,,,,,Formulations ,,,,,,,,,,,,,,,,,,,,,,,,,,,,,,
Cell pellet rinsed with 20mL of RINSE 1YCM,,,,,,,,,,cells,media,total,,,,,,,,,,,,,,,,,,,,,,,,,,,,
Cells centrigued in rotana for 15min at 6000rcf and 4C at 10:10.,,,,,,,,,,#1 ,0.5,,,,,,,,,,,,,,,,,,,,,,,,,,,,,
Coatings placed in vacuum chamber at 11:30.,,,,,,,,,RINSE (0.5),350,350,700,,,,,,,,,,,,,,,,,517.765,,,,,,,,,,,
Tubes placed in respective RH bottles.,,,,,,,,,,#2,0.5,,,,,,,,,,,,,,,,,,220.47,,,,,,,,,,,
All bottles were flushed with argon at 10psi for 10 minutes,,,,,,,,,2mL,230,230,460,,,,,,,,,,,,,,,,,613.372,,,,,,,,,,,
,,,,,,,,,,#3,0.5,,,,,,,,,,,,,,,,,,108,,,,,,,,,,,
Rehydration:,,,,,,,,,4mL,230,230,460,,,,,,,,,,,,,,,,,241.741,,,,,,,,,,,
"**Note the RINSE 1YCM turned pink even before rehydrating the tubes, but changed back to neutral after being flushed with syngas.",,,,,,,,,,#3,0.5,,,,,,,,,,,,,,,,,,494.706,,,,,,,,,,,
Tubes A-E rehydrated with 4mL of RINSE ,,,,,,,,,6mL,290,290,580,,,,,,,,,,,,,,,,,447.446,,,,,,,,,,,
"Tubes F,G,H rehydrated w/ 4mL of 2mL media",,,,,,,,,,,,,,,,,,,,,,,,,,,,,314.071,,,,,,,,,,,
"Tubes I,J,K rehydrated w/ 4mL of 4mL media",,,,,,,,,total cells,1100,,,,,,,,,,,,,,,,,,,779.989,,,,,,,,,,,
Tubes L-O rehydated with 4mL of 4mL media,,,,,,,,,,,,,,,,,,,,,,,,,,,,,318.681,,,,,,,,,,,
All tubes flushed with syngas for 2min at 10psi. ,,,,,,,"                             RH Left to Right: 0% , 11% , 29%  ",,,,,,,,,,,,,,,,,,,,,,878.724,,,,,,,,,,,
All tubes placed in shaker at 2:25 at 50rpm & 37C,,,,,,,,,,,,,,,,,,,,,,,,,,,,,1135.82,,,,,,,,,,,
,,,,,,,,,,,,,,,,,,,,,,,,,,,,,950.558,,,,,,,,,,,
Sampling: 11/3/2015,,,,,,,,,,,,,,,,,,,,,,,,,,,,,1227.2,,,,,,,,,,,
Samples taken from tubes A-L at 2:25 PM on 11/3/2015,,,,,,,,,,,,,,,,,,,,,,,,,,,,,1097.01,,,,,,,,,,,
Samples taken from tubes M-O at 3:00 PM on 11/3/2015,,,,,,,,,,,,,,,,,,,,,,,,,,,,,,,,,,,,,,,,
All tubes returned to shaker between and after samples were taken,,,,,,,,,,,,,,,,,,,,,,,,,,,,,,,,,,,,,,,,
,,,,,,,,,,,,,,,,,,,,,,,,,,,,,,,,,,,,,,,,
Sampling 11/4/15 Samples taken from tubes at 8:35am,,,,,,,,,,,,,,,,,,,,,,,,,,,,,,,,,,,,,,,,
"Tubes L,M,N,and O showed discoloration of the coating on the cell side of the paper. The cells seemed to have begun to turn black. ",,,,,,,,,,,,,,,,,,,,,,,,,,,,,,,,,,,,,,,,
,,,,,,,,,,,,,,,,,,,,,,,,,,,,,,,,,,,,,,,,
pH Measurements: 11/5/2015,,,,,,,,,,,,,,,,,,,,,,,,,,,,,,,,,,,,,,,,
pH was measured of some of the tubes to test if the reducing agent was causing variance in pH,,,,,,,,,,,,,,,,,,,,,,,,,,,,,,,,,,,,,,,,
A,5.01,,,,,,,,,,,,,,,,,,,,,,,,,,,,,,,,,,,,,,,
C,5.01,,,,,,,,,,,,,,,,,,,,,,,,,,,,,,,,,,,,,,,
F,4.62,Good pH range; samples made with 1mL CYS; these had highest reactivities,,,,,,,,,,,,,,,,,,,,,,,,,,,,,,,,,,,,,,
G,4.55,** Keep in mind -- aceatic acid production would cause pH to decrease,,,,,,,,,,,,,,,,,,,,,,,,,,,,,,,,,,,,,,
H,4.62,,,,,,,,,,,,,,,,,,,,,,,,,,,,,,,,,,,,,,,
I,6.01,"Cells reduced with 1mL CYS Na2S also had decent reactivity, but higher pH; Na2S raises the pH",,,,,,,,,,,,,,,,,,,,,,,,,,,,,,,,,,,,,,
J,5.81,,,,,,,,,,,,,,,,,,,,,,,,,,,,,,,,,,,,,,,
L,6.65, pH of 2mL CYS Na2S samples is high; cells had lowest reactivity ,,,,,,,,,,,,,,,,,,,,,,,,,,,,,,,,,,,,,,
N,6.74,,,,,,,,,,,,,,,,,,,,,,,,,,,,,,,,,,,,,,,

File: REK drying 111315.csv
Tube,Notch placement (temp column.),substrate,Volume to add in mL,total liquid volume,RH Storage,Formulation,Drying Time,substrate size (cm^2),coating volume (uL), coated surface area (cm^2),shaker speed,,H2,O2,N2,CO,CO2,Scaled CO,N2 Base,H2,O2,N2,CO,CO2,Scaled CO,N2 Base,
,,,,,,,,,,,,samples assayed,,,,,,,340,,,,,,,340,
A,No notch,602h,4,4.12,11,1,30,10,120,10,50,at 2:30,12770.3,0,340.8,1249.9,49.8,1246.97,,12849.8,0,366,1031.9,115.2,958.596,,
B,No notch,602h,4,4.12,11,1,30,10,120,10,50,,12852.7,0,344.1,1098.4,103,1085.31,,13462.6,0,364.5,745.6,224.2,695.484,,
C,No notch,602h,4,4.12,11,1,60,10,120,10,50,,12271.7,0,335.9,1140.8,66.7,1154.72,,13071.1,0,367.2,836.3,193.3,774.352,,
D,No notch,602h,4,4.12,11,1,90,10,120,10,50,,12865.8,0,349.3,962.2,148,936.582,,13763.2,0,391.3,505.9,302.5,439.576,,
E,LN,602h,4,4.12,11,2,30,10,120,10,50,,12311.1,0,332.8,1129.6,68.3,1154.04,,12679.3,0,347.4,951.2,148.4,930.938,,
F,LN,602h,4,4.12,11,2,30,10,120,10,50,,12675.6,0,343.5,979.3,133.8,969.322,,13400.3,0,366.9,631.6,256.8,585.293,,
G,LN,602h,4,4.12,11,2,60,10,120,10,50,,12401.5,0,334.1,1055.1,89.1,1073.73,,13056.5,0,371.8,710.4,206.9,649.64,,
H,LN,602h,4,4.12,11,2,90,10,120,10,50,,12146,0,353.1,1042.1,105.3,1003.44,,13056.5,0,371.8,710.4,206.9,649.64,,
I,RN,602h,4,4.12,11,3,30,10,120,10,50,,11841,0,325,1183.3,56.7,1237.91,,12185,0,336.7,1055.4,99.5,1065.74,,
J,RN,602h,4,4.12,11,3,60,10,120,10,50,,11981.7,0,325.2,1177.7,47.6,1231.3,,12328.5,0,333.7,1021.1,114.2,1040.38,,
K,Rn,602h,4,4.12,11,3,60,10,120,10,50,,12019.3,0,329.4,1079.7,104.3,1114.44,,12607.9,0,339.6,826.6,175.2,827.574,,
L,Rn,602h,4,4.12,11,3,90,10,120,10,50,,12020.6,0,334.3,1069,89.9,1087.23,,12643.6,0,353.4,793.1,191.9,763.028,,
M,MN,602h,4,4.12,11,4,30,10,120,10,50,,11721.7,0,369.4,873.6,140.8,804.071,,11942.9,0,432.7,587.8,233.5,461.872,,
N,MN,602h,4,4.12,11,4,60,10,120,10,50,,12155.6,0,331.5,912.5,131.7,935.897,,13196.8,0,363.2,596.4,254.5,558.304,,
O,MN,602h,4,4.12,11,4,90,10,120,10,50,,12138.2,0,347.1,795.9,185.6,779.62,,12896.3,0,401.5,504.8,290.5,427.477,,
P,MN,602h,4,4.12,11,4,90,10,120,10,50,,12562.2,0,362.6,765.8,175.3,718.069,,12817.4,0,474.1,386.5,315.6,277.178,,
,,,,,,,,,,,,,,,,,,,,,,,,,,,
,,,,,,,,,,,,,,,,,,,,,,,,,,,
,,,,,,,,total,1920,,,,,,,,,,,,,,,,,,
,,,,,,,,,,,,,,,,,,,,,,,,,958.596,,
,,,,,,,Formulations,,,,,,,,,,,,,,,,,,695.484,,
Drying Notes,,,,,,1mL 1YCM ,#1 ,0.5,,,,,,,,,,,,,,,,,774.352,,
Bottles 3'A-D transferred to oak ridge tube ,,,,,,,400,400,800,,,,,,,,,,,,,,,,439.576,,
"Oak ridge tube centrifuged in Becman at 9:45am at 4C, 5000rpm and for 15min.",,,,,,1mL 1YCM + .02 g/mL trehalose,#2,0.5,,,,,,,,,,,,,,,,,930.938,,
Cell pellet rinsed with 20mL of 1YCM and transferred to smaller oak ridge tube,,,,,,,400,400,800,,,,,,,,,,,,,,,,585.293,,
Tube centrifuged in rotana at10:10 for 15min at 4C and 6000rcf.,,,,,,1mL 1YCM + 0.05,#3,0.5,,,,,,,,,,,,,,,,,649.64,,
Coatings placed in vacuum chamber at 12:05 ,,,,,,,400,400,800,,,,,,,,,,,,,,,,649.64,,
removed coatings from vacuum chamber in batches per experimental design,,,,,,1mL 1YCM + 0.1,#4,0.5,,,,,,,,,,,,,,,,,1065.74,,
All coatings placed in large bottles with 11% RH,,,,,,,400,400,800,,,,,,,,,,,,,,,,1040.38,,
All large bottles flushed with argon at 20psi for 10 minutes,,,,,,,,,,,,,,,,,,,,,,,,,827.574,,
"Bottles placed in anaerobic chamber at 2""40",,,,,,,,,,,,,,,,,,,,,,,,,763.028,,
The humidity sensor placed in the 90 min drying time bottle was from the stock of sensors and all those sensors had already turned pin at the 10% level. ,,,,,,,,,,,,,,,,,,,,,,,,,461.872,,
,,,,,,,,,,,,,,,,,,,,,,,,,558.304,,
Rehydration 11/16,,,,,,,,,,,,,,,,,,,,,,,,,427.477,,
Rehydrated all tubes with 4mL of 1YCM (PCG 10/29/15),,,,,,,,,,,,,,,,,,,,,,,,,277.178,,
All tubes flushed with syngas for 2 minutes at 10psi,,,,,,,,,,,,,,,,,,,,,,,,,,,
All tubes placed in shaker at 2:22pm. ,,,,,,,,,,,,,,,,,,,,,,,,,,,
11/17/15 out of shaker at 2:22 pm. all back into shaker at 250pm,,,,,,,,,,,,,,,,,,,,,,,,,,,
,,,,,,,,,,,,,,,,,,,,,,,,,,,
,,,,,,,,,,,,,,,,,,,,,,,,,,,
,,,,,,,,,,,,,,,,,,,,,,,,,,,
,,,,,,,,,,,,,,,,,,,,,,,,,,,
,,,,,,,,,,,,,,,,,,,,,,,,,,,

File: REK Drying 112015.csv
Tube,Notch placement (temp column.),substrate,Volume to add in mL,total liquid volume,RH Storage,Formulation,Substrate,Drying Time,substrate size (cm^2),coating volume (uL), coated surface area (cm^2),shaker speed,,H2,O2,N2,CO,CO2,Scaled CO,N2 Base,H2,O2,N2,CO,CO2,Scaled CO,N2 Base,
,,,,,,,,,,,,,,,,,,,,340,,,,,,,340,
A,No notch,3MM,4,4.2,11,2,3MM,15,10,200,10,50,A,12429,,355,1317,0,1261.35,,12561,0,348.1,1302.9,41.1,1272.58,,
B,No notch,3MM,4,4.2,11,2,3MM,15,10,200,10,50,B,12269,,313,1190,31,1292.65,,12686.8,0,324.6,1149.3,53.4,1203.83,,
C,No notch,602hh,4,4.12,11,1,602hh,15,10,120,10,50,C,13177,,392,729,223,632.296,,12638.7,0,662.9,176.2,410.5,90.3726,,
D,No notch,602hh,4,4.12,11,1,602hh,15,10,120,10,50,D,12992,,357,1013,113,964.762,,13737.1,0,394.6,715,280.5,616.067,,
E,LN,3MM,4,4.12,11,2,3MM,30,10,200,10,50,E,13202,,347,764,176,748.588,,13417.7,0,461,428.1,287.7,315.735,,
F,LN,3MM,4,4.12,11,2,3MM,30,10,200,10,50,F,13226,,353,730,191,703.116,,14258.2,0,385.1,380.2,315.6,335.674,,
G,LN,602hh,4,4.12,11,1,602hh,30,10,120,10,50,G,12920,,371,815,189,746.9,,13513.9,0,416.8,694.1,277.4,566.204,,
H,LN,602hh,4,4.12,11,1,602hh,30,10,120,10,50,H,11794,,463,979,108,718.92,,12546.6,0,533.1,702.9,183.7,448.295,,
I,RN,3MM,4,4.12,11,2,3MM,60,10,200,10,50,I,13298,,387,610,242,535.917,,13195.4,0,614.5,210.3,386,116.358,,
J,RN,3MM,4,4.12,11,2,3MM,60,10,200,10,50,J,13138,,345,725,186,714.493,,13793.1,0,382,579.3,305.3,515.607,,
K,Rn,602hh,4,4.12,11,1,602hh,60,10,120,10,50,K,12740,,353,847,167,815.807,,13848.7,0,428.6,411.8,384.7,326.673,,
L,Rn,602hh,4,4.12,11,1,602hh,60,10,120,10,50,L,12364,,347,1018,111,997.464,,13412.3,0,386.8,707.7,306.6,622.073,,
M,MN,3MM,4,4.2,11,2,3MM,90,10,200,10,50,M,12712,,362,629,200,590.773,,13308.6,0,484.7,259.2,296.5,181.82,,
N,MN,3MM,4,4.2,11,2,3MM,90,10,200,10,50,N,13152,,357,654,219,622.857,,14381.2,0,438.1,218.3,458.3,169.418,,
O,MN,602hh,4,4.12,11,1,602hh,90,10,120,10,50,O,12424,,342,978,107,972.281,,13369.1,0,380.9,697.5,286.6,622.604,,
P,MN,602hh,4,4.12,11,1,602hh,90,10,120,10,50,P,12121,,334,934,121,950.778,,13191.7,0,441.1,657.4,322.1,506.724,,
,,,,,,,,,,,,,,Sampled on 11/24/2015 and 2:05 pm,,,,,,,,,,,,,,
,,,,,,,,,,,,,,,,,,,,,,,,,,,,
,,,,,,,,,total 602hh,960,,,,,,,,,,,,,,,,,,
,,,,,,,,,total 3MM,1600,,,,,,,,,,,,,,,,,,
,,,,,,,,Formulations,,Total,,,,,,,,,,,,,,,,,,
Drying Notes,,,,,,1mL 1YCM ,,#1 ,0.5,,,,,,,,,,,,,,,,,1272.58,,
Bottles 3'A-D transferred to oak ridge tube ,,,,,,,,550,550,1100,,,,,,,,,,,,,,,,1203.83,,
"Oak ridge tube centrifuged in Becman at 5pm at 4C, 5000rpm and for 15min.",,,,,,,,#2,0.3,,,,,,,,,,,,,,,,,90.3726,,
**Note: Beckman did not brake and it took an hour for the centrifuge to slow down ,,,,,,,,550,1283.33,1833.33,,,,,,,,,,,,,,,,616.067,,
Rinsed with PCG 10/29/15 1mL CYS,,,,,,,,,,,,,,,,,,,,,,,,,,315.735,,
Tube centrifuged in rotana at 6:20 for 15min at 4C and 6000rcf.,,,,,,,,,,,,,,,,,,,,,,,,,,335.674,,
Coatings placed in vacuum chamber at 7,,,,,,,,,,,,,,,,,,,,,,,,,,566.204,,
removed coatings from vacuum chamber in batches per experimental design,,,,,,,,,,,,,,,,,,,,,,,,,,448.295,,
All coatings placed in large bottles with 11% RH,,,,,,,,,,,,,,,,,,,,,,,,,,116.358,,
All large bottles flushed with argon at 20psi for 10 minutes,,,,,,,,,,,,,,,,,,,,,,,,,,515.607,,
**Note: I felt air escaping through the needle hole after I pulled out the flushing needle and before venting to atmospheric. We may need to adjust the bottle caps.,,,,,,,,,,,,,,,,,,,,,,,,,,326.673,,
Bottles placed in anaerobic chamber at 9:20,,,,,,,,,,,,,,,,,,,,,,,,,,622.073,,
,,,,,,,,,,,,,,,,,,,,,,,,,,181.82,,
Rehydration:,,,,,,,,,,,,,,,,,,,,,,,,,,169.418,,
All tubes rehydrated with 4mL of 1YCM (50 mL PCG 10/29/15 w/ 2mL of CYS),,,,,,,,,,,,,,,,,,,,,,,,,,622.604,,
All tubes flushed with syngas for 2min at 10psi.,,,,,,,,,,,,,,,,,,,,,,,,,,506.724,,
Al tubes placed in shaker at 3:15pm,,,,,,,,,,,,,,,,,,,,,,,,,,,,
,,,,,,,,,,,,,,,,,,,,,,,,,,,,
Sampling: 11/24/2015,,,,,,,,,,,,,,,,,,,,,,,,,,,,
Tubes A-L removed from shaker at 2:04 pm returned at 2:12 pm,,,,,,,,,,,,,,,,,,,,,,,,,,,,
Tubes M-P removed from shaker at 2:51 pm returned at 2:58 pm,,,,,,,,,,,,,,,,,,,,,,,,,,,,
,,,,,,,,,,,,,,,,,,,,,,,,,,,,